accX[mg]	accY[mg]	accZ[mg] 
218.868	-259.616	924.516
236.68	-245.464	941.596
261.08	-295.24	927.444
264.496	-257.908	947.208
265.472	-292.556	934.52
278.16	-274.5	930.372
280.844	-257.176	933.056
408.212	-104.92	942.572
406.992	-4.392	837.652
425.78	-15.616	647.576
385.276	-158.356	518.744
298.656	-377.712	563.884
264.984	-669.048	633.912
261.324	-679.784	657.824
273.524	-760.304	742.004
271.816	-758.352	648.064
263.276	-729.56	560.224
285.968	-792.024	549.488
296.216	-755.18	486.292
280.6	-823.256	441.64
345.016	-896.456	379.664
403.088	-917.684	382.836
447.252	-1003.82	317.932
486.536	-967.704	331.596
474.58	-973.804	296.46
480.68	-961.604	297.924
440.42	-915.976	241.804
429.196	-974.78	262.788
422.852	-948.428	301.34
418.948	-957.7	277.428
425.536	-917.44	289.14
423.34	-916.22	310.856
419.924	-856.196	207.888
444.08	-905.728	284.26
443.592	-908.168	280.112
488	-1029.68	322.568
473.116	-892.552	334.524
446.032	-909.388	328.424
404.552	-942.328	313.296
363.56	-885.72	326.716
339.404	-878.888	393.572
317.932	-877.18	368.684
323.3	-878.4	389.668
309.636	-836.432	343.308
351.116	-866.444	418.46
349.896	-800.076	370.88
431.148	-822.036	348.676
377.956	-910.12	369.416
314.028	-846.436	317.932
322.324	-902.068	376.004
292.556	-930.128	394.06
328.18	-854.244	440.908
331.352	-857.416	435.54
345.504	-836.188	420.168
349.896	-850.828	396.256
321.836	-858.88	426.756
334.768	-840.336	439.444
341.844	-830.088	433.1
354.044	-828.868	446.52
357.948	-813.984	459.696
348.188	-810.324	449.204
349.652	-836.676	467.016
351.604	-811.3	473.36
359.168	-783.728	498.736
356.972	-806.908	477.264
353.068	-784.948	490.684
357.216	-804.956	500.444
355.264	-788.12	488
353.8	-819.84	440.664
349.652	-797.88	443.104
394.06	-754.204	523.38
351.36	-870.836	446.52
344.772	-842.776	419.192
331.352	-827.404	432.856
364.048	-800.808	468.968
350.384	-837.896	439.2
341.844	-884.988	421.388
357.46	-801.296	445.788
352.58	-836.92	438.956
347.7	-848.632	438.468
349.408	-825.452	418.948
378.932	-830.576	443.836
360.876	-819.84	437.98
339.892	-844.484	444.812
356.484	-797.148	500.444
360.876	-794.952	474.58
378.932	-786.412	519.476
345.016	-789.828	434.808
340.38	-851.316	421.632
358.192	-815.204	491.904
360.632	-807.884	506.3
355.752	-792.024	466.772
358.436	-757.864	455.06
399.916	-728.584	510.936
327.936	-930.86	343.308
326.228	-958.92	292.556
313.54	-900.848	408.456
349.652	-811.3	414.556
371.124	-856.928	369.172
367.708	-848.632	378.932
359.656	-845.216	400.648
349.896	-847.656	411.628
334.524	-852.048	391.376
370.392	-852.292	435.052
386.008	-765.184	460.428
343.796	-834.968	414.068
357.704	-802.76	459.94
354.044	-845.704	475.556
362.828	-833.26	446.276
334.524	-822.036	403.82
356.728	-821.304	450.18
370.392	-825.696	395.036
366.488	-840.092	481.9
341.844	-818.376	439.444
351.848	-815.204	400.892
361.852	-811.544	438.956
349.652	-909.876	384.056
346.724	-859.368	433.1
339.404	-817.888	464.82
344.772	-790.56	432.856
358.192	-756.156	429.684
423.828	-755.912	540.948
393.572	-881.328	497.516
290.36	-1090.19	84.912
273.524	-877.424	132.98
276.94	-839.604	326.228
398.452	-856.684	403.82
348.432	-846.924	426.268
320.128	-858.392	491.904
322.812	-850.828	422.852
307.196	-906.948	398.452
372.1	-779.824	464.332
350.14	-785.924	448.716
358.68	-828.868	439.2
335.012	-837.652	467.504
292.556	-823.012	498.004
313.784	-859.368	386.252
361.608	-809.592	364.048
386.984	-793.244	488.488
303.78	-928.42	392.596
308.172	-914.268	386.252
312.808	-800.32	466.284
326.96	-840.336	383.324
381.128	-750.544	487.756
345.748	-850.828	468.968
293.776	-952.088	344.04
308.172	-831.552	406.26
313.784	-870.104	436.028
381.128	-779.824	475.068
361.12	-826.428	444.324
310.124	-835.212	412.848
316.468	-864.98	387.472
314.516	-870.592	406.748
346.724	-842.776	467.992
362.096	-789.828	521.916
318.908	-823.988	366.488
338.672	-753.716	452.376
326.96	-784.704	488.244
326.716	-996.74	203.008
309.88	-1166.08	61.244
310.368	-1179.25	27.816
362.096	-1260.26	345.016
320.616	-1210.97	631.96
277.428	-972.828	714.676
345.992	-613.172	698.816
416.264	-412.604	668.072
402.6	-342.332	705.404
379.664	-308.172	738.1
343.796	-254.736	755.424
330.62	-223.26	748.104
313.784	-214.72	730.78
322.812	-226.188	806.42
326.96	-197.64	785.192
334.036	-204.716	852.292
320.372	-201.788	867.176
289.872	-176.412	862.296
289.628	-204.472	902.312
267.424	-222.284	880.596
296.216	-216.672	938.18
314.516	-210.572	927.688
323.3	-187.392	941.108
313.54	-183.488	925.98
307.928	-204.472	924.76
319.884	-223.504	939.4
303.78	-224.48	919.392
300.608	-215.696	927.688
295.484	-227.652	915.976
296.46	-227.164	912.804
301.34	-232.776	940.376
290.36	-224.48	935.252
287.188	-216.184	938.668
301.34	-229.604	945.256
294.508	-233.508	910.364
301.828	-235.948	938.912
292.8	-236.436	913.292
291.58	-230.824	905.24
300.364	-235.216	942.816
285.968	-235.948	916.952
291.336	-244.976	928.176
288.896	-254.004	936.472
289.14	-248.88	915.244
283.772	-245.952	922.564
282.064	-250.588	920.856
282.796	-244.976	912.56
281.576	-246.44	916.952
278.16	-252.052	919.636
278.404	-250.344	913.536
285.236	-270.352	934.52
276.208	-262.544	912.072
276.208	-256.932	913.536
278.892	-249.856	915.244
299.388	-250.1	905.728
328.668	-231.556	832.772
364.292	-237.656	708.576
389.18	-359.412	641.232
413.336	-423.828	614.392
415.044	-433.1	566.08
392.352	-575.596	518.012
335.988	-776.896	562.176
275.964	-977.464	532.896
184.22	-1044.56	433.1
190.32	-1116.79	329.156
116.632	-1157.05	208.864
130.296	-1138.26	221.552
176.168	-1048.22	223.992
265.472	-996.984	246.196
369.66	-976.488	403.332
409.676	-746.152	396.5
537.044	-766.404	592.188
517.28	-816.18	463.356
369.416	-909.144	373.564
328.912	-832.772	493.856
307.928	-823.744	525.332
311.344	-802.272	506.544
348.432	-782.996	521.184
342.088	-814.96	522.892
323.544	-819.108	482.388
358.924	-770.308	526.552
337.94	-790.072	519.964
338.184	-786.9	513.376
329.4	-785.68	505.568
351.116	-786.656	531.676
337.696	-801.54	495.32
345.26	-800.32	507.276
358.436	-771.772	565.592
331.108	-786.656	461.404
318.908	-820.328	483.364
378.2	-788.12	455.548
369.416	-736.636	564.128
346.724	-797.88	531.188
297.924	-910.608	371.856
328.668	-828.38	485.804
360.388	-802.272	487.024
359.412	-825.208	451.156
354.288	-791.78	473.604
332.816	-795.928	498.736
369.66	-740.784	507.52
357.216	-794.22	546.316
336.232	-834.236	465.796
325.496	-858.636	452.62
330.132	-832.772	477.264
401.868	-714.676	508.252
401.136	-761.28	490.928
338.672	-800.076	527.284
286.212	-927.688	415.776
338.428	-818.132	452.376
384.788	-750.056	553.392
355.264	-791.536	488
366.244	-758.352	510.448
340.38	-810.08	481.9
352.336	-805.2	427.976
350.872	-834.968	492.148
335.256	-797.636	491.172
365.512	-792.268	488.976
344.528	-765.428	493.856
344.528	-854.488	440.42
340.868	-858.148	426.512
335.012	-845.704	460.428
332.572	-810.812	474.58
368.196	-770.552	500.2
369.904	-800.076	482.632
357.704	-787.388	461.648
348.432	-783.484	443.592
346.48	-801.296	535.336
315.492	-891.576	449.204
355.02	-830.82	469.944
332.572	-826.672	461.404
387.228	-782.508	503.616
346.48	-799.832	492.392
344.284	-792.512	470.676
337.452	-772.992	505.324
352.092	-830.82	404.064
361.852	-820.572	489.464
326.96	-881.816	443.592
355.264	-792.512	517.28
318.664	-799.1	508.008
360.388	-811.544	457.744
340.136	-775.432	485.316
349.164	-855.464	429.684
362.584	-766.648	493.612
339.892	-777.872	475.068
357.216	-805.688	473.116
306.708	-913.048	432.612
321.104	-850.828	427.244
359.412	-823.744	479.948
335.744	-859.124	396.5
346.724	-821.792	460.184
338.428	-785.192	467.748
376.98	-794.952	488
362.34	-820.328	459.208
337.452	-806.664	504.592
322.324	-816.668	447.252
341.112	-811.788	389.912
384.788	-811.3	517.768
339.404	-860.832	401.38
328.912	-876.936	423.34
304.512	-831.064	464.088
349.896	-851.072	420.412
380.396	-803.736	452.132
349.408	-825.696	442.616
347.7	-790.072	423.34
358.436	-779.824	502.396
356.728	-823.256	490.44
313.54	-916.952	355.02
320.128	-850.096	428.22
346.236	-820.816	456.28
348.432	-866.2	382.104
349.408	-848.876	415.776
357.46	-791.048	446.276
367.708	-835.7	484.096
345.504	-810.568	479.704
347.7	-824.964	448.472
335.5	-824.232	413.824
350.628	-833.26	408.7
357.46	-827.404	496.54
346.724	-855.464	401.624
328.912	-873.276	404.552
328.912	-840.336	428.464
358.192	-864.736	418.216
372.588	-786.656	425.78
355.508	-843.996	392.352
369.904	-753.472	484.096
353.556	-801.54	509.472
292.8	-969.412	285.236
333.548	-874.252	387.472
351.36	-822.28	433.1
352.336	-869.372	376.492
346.48	-857.416	392.84
370.392	-790.804	463.112
342.088	-841.068	426.512
362.584	-801.296	475.556
338.672	-830.82	378.688
346.48	-822.28	421.144
343.064	-855.708	447.008
338.428	-881.084	401.868
334.28	-850.34	415.044
352.336	-831.552	435.052
354.288	-827.648	412.36
345.748	-840.336	397.964
373.564	-815.692	424.072
338.428	-834.48	481.412
329.888	-846.924	440.908
337.94	-811.544	438.956
377.956	-768.356	466.04
352.824	-775.432	453.596
313.296	-889.624	297.924
312.808	-993.812	161.284
325.74	-957.944	134.688
353.312	-970.876	171.532
329.156	-919.392	104.92
348.188	-945.988	145.912
346.48	-985.272	76.616
347.944	-942.084	72.712
344.772	-952.332	71.248
342.576	-932.568	6.344
348.92	-948.672	9.76
347.456	-943.06	76.128
367.464	-926.224	53.68
385.764	-945.5	72.468
369.904	-937.448	54.168
378.2	-937.204	52.216
385.276	-900.36	89.06
422.852	-937.448	164.212
420.168	-885.476	162.748
409.676	-909.632	223.016
401.136	-878.888	211.792
408.944	-875.472	264.496
409.188	-817.888	367.22
371.612	-829.112	334.28
379.176	-787.144	350.14
323.056	-804.468	433.832
415.288	-810.568	561.2
468.236	-733.22	460.916
529.724	-722.484	533.872
520.208	-689.3	488.244
550.952	-708.82	540.46
516.304	-643.672	530.7
542.656	-696.62	497.516
549.732	-657.092	474.58
566.08	-710.04	452.62
568.276	-682.712	439.688
597.068	-692.96	469.7
599.264	-678.808	423.828
628.3	-647.088	442.86
616.1	-653.676	426.024
601.948	-684.664	429.44
595.604	-681.492	409.188
610.732	-679.052	417.24
622.444	-652.456	414.556
627.568	-672.952	411.872
619.516	-674.416	406.016
613.66	-676.856	406.504
616.588	-693.448	407.48
611.952	-680.028	411.872
616.588	-676.856	408.944
611.464	-675.88	399.428
620.736	-684.908	406.504
605.608	-686.86	389.668
612.196	-696.132	406.504
617.564	-669.536	406.748
617.564	-694.912	396.988
613.416	-673.44	408.456
611.22	-695.644	394.792
610.488	-683.688	394.792
619.76	-689.3	403.82
612.684	-681.736	388.692
615.612	-689.3	404.308
606.828	-696.132	401.624
607.804	-679.784	395.28
621.468	-689.544	406.504
617.564	-676.856	402.112
613.66	-686.616	396.5
609.024	-683.932	398.452
614.636	-692.96	402.844
611.952	-686.616	396.988
612.196	-673.684	406.504
619.272	-683.2	401.136
614.636	-688.812	402.356
617.808	-683.688	402.356
605.852	-689.544	396.256
620.736	-677.344	413.58
616.344	-682.956	396.744
619.028	-686.616	399.672
611.464	-679.296	398.696
618.54	-687.592	399.916
614.148	-678.808	391.62
617.564	-685.884	401.136
616.344	-678.808	404.552
622.2	-682.712	397.964
618.296	-683.932	400.648
616.832	-679.296	396.5
613.904	-686.128	396.988
618.296	-685.152	408.456
618.784	-685.396	401.38
616.832	-676.612	393.572
621.956	-692.716	401.136
612.684	-681.004	397.964
619.76	-681.736	399.916
615.124	-684.908	400.404
617.076	-680.272	399.916
614.148	-686.616	400.648
611.952	-674.904	402.844
618.296	-683.688	398.208
612.684	-680.028	405.528
618.54	-680.76	402.844
614.636	-678.564	393.572
621.224	-682.956	405.04
613.66	-680.516	401.868
619.028	-688.08	402.6
615.368	-674.904	401.136
617.076	-679.54	399.428
611.22	-681.004	400.648
617.564	-685.64	404.064
613.904	-681.248	399.916
620.004	-689.056	403.82
619.516	-672.22	406.504
621.468	-684.908	408.7
612.44	-672.952	394.548
617.564	-690.032	402.356
613.172	-683.2	399.428
621.468	-677.832	404.552
621.468	-680.272	398.696
618.052	-681.248	402.6
618.296	-686.616	402.6
613.904	-687.348	400.892
619.028	-671.488	404.552
618.784	-681.248	397.72
619.028	-679.784	402.844
617.564	-683.932	400.648
616.588	-682.712	397.964
619.028	-684.176	404.308
616.588	-676.856	397.476
617.076	-681.492	404.552
617.32	-689.056	400.892
609.512	-679.296	397.232
619.516	-683.932	402.844
612.196	-682.712	397.232
619.516	-681.492	406.26
609.756	-682.956	399.184
618.784	-683.2	405.04
611.464	-688.08	398.208
618.784	-679.784	405.284
613.904	-685.152	401.624
618.296	-677.832	406.748
611.708	-684.176	404.552
611.22	-682.956	403.82
613.416	-682.468	405.284
617.564	-671.244	404.552
617.32	-687.592	402.844
609.024	-681.004	406.504
614.636	-681.004	404.796
615.368	-684.908	408.456
614.392	-679.784	406.016
614.636	-684.664	401.38
611.952	-675.392	407.48
617.808	-689.3	404.796
610.488	-676.124	401.868
618.296	-677.588	408.944
607.316	-687.592	400.404
613.904	-683.444	408.944
616.832	-679.784	398.94
615.124	-689.3	406.504
612.684	-674.416	406.748
615.368	-693.692	406.504
606.584	-678.808	401.868
619.028	-685.396	404.308
612.684	-681.248	399.428
617.076	-687.348	402.356
610.488	-681.736	397.72
616.344	-685.64	407.724
611.464	-678.808	401.624
612.196	-683.688	402.844
611.708	-681.736	409.676
615.124	-680.76	397.72
617.076	-688.812	405.04
614.148	-680.516	400.16
616.832	-691.252	404.796
608.78	-678.076	404.552
616.1	-686.128	402.356
610	-676.612	399.428
617.564	-689.3	399.184
611.708	-679.54	392.84
619.272	-683.688	403.332
618.296	-690.032	401.136
612.928	-680.76	398.452
617.564	-690.032	407.724
610.244	-684.176	398.94
614.636	-684.664	401.624
611.464	-684.176	396.988
611.708	-680.76	400.892
616.832	-688.568	400.892
610.732	-683.932	397.476
619.028	-683.2	401.868
616.344	-690.764	393.816
616.832	-680.028	401.38
615.124	-687.836	396.988
608.78	-680.76	392.108
615.612	-688.568	405.04
621.712	-684.42	396.012
617.808	-683.688	396.5
618.296	-682.468	396.256
617.076	-685.64	399.184
618.052	-686.616	394.792
614.636	-683.688	397.476
616.832	-681.736	394.06
620.736	-688.324	395.036
608.048	-686.616	392.352
622.688	-684.42	403.332
613.904	-685.64	397.476
620.004	-681.004	403.576
615.124	-684.664	390.888
616.832	-681.98	395.768
620.98	-690.276	397.72
616.588	-679.784	394.304
618.784	-685.884	400.16
618.296	-686.616	395.28
617.564	-684.664	394.792
618.296	-681.98	395.768
617.076	-680.272	396.988
619.76	-683.444	398.94
615.612	-685.64	397.964
614.636	-685.884	403.088
618.052	-682.224	398.94
619.028	-684.664	394.06
611.708	-683.688	403.82
615.368	-684.908	397.964
609.024	-680.516	398.696
614.636	-681.98	400.404
616.832	-689.056	400.892
613.904	-688.08	403.82
615.124	-681.004	404.308
613.416	-682.956	398.696
614.636	-686.372	404.796
615.856	-682.224	401.136
613.172	-685.64	398.452
614.636	-681.004	406.992
615.612	-686.128	403.088
613.904	-676.856	400.892
621.956	-691.984	406.26
609.024	-681.004	397.476
613.416	-683.2	406.992
612.928	-681.98	399.428
619.272	-684.664	408.944
613.172	-677.1	401.868
616.344	-693.936	406.504
607.804	-673.196	399.184
617.808	-687.104	402.6
612.684	-676.856	398.696
615.612	-686.372	413.092
610.244	-683.932	396.5
614.392	-681.004	401.624
610.976	-686.86	402.356
616.588	-679.052	407.968
614.148	-683.932	400.892
611.464	-682.956	405.772
613.66	-681.736	403.332
618.54	-690.52	403.332
611.464	-676.856	401.868
621.468	-685.64	404.308
612.684	-680.516	401.38
622.932	-684.42	408.212
609.756	-685.64	397.232
617.564	-679.296	409.188
608.048	-683.444	393.816
619.516	-682.468	406.26
610	-681.736	391.132
621.956	-689.3	409.432
610.488	-682.956	397.476
617.564	-688.812	403.576
616.1	-678.564	398.696
618.784	-685.64	402.356
610.244	-677.832	396.744
623.908	-690.032	393.816
611.464	-685.396	397.476
620.492	-676.124	396.256
619.516	-689.544	402.112
612.44	-683.444	402.112
624.396	-686.616	397.232
617.32	-685.396	394.06
618.54	-684.664	398.94
618.052	-681.736	398.696
619.76	-681.736	395.524
613.172	-684.664	389.424
619.272	-681.492	398.208
620.98	-683.932	395.036
617.076	-682.224	395.768
616.588	-679.54	394.304
619.272	-690.52	400.404
619.028	-684.908	397.964
617.564	-683.932	396.988
610.732	-689.056	401.868
613.416	-674.172	393.816
623.908	-685.396	401.868
612.44	-677.832	395.28
617.808	-684.908	399.428
612.684	-682.224	397.964
613.904	-685.64	398.696
617.564	-689.056	395.28
615.612	-683.932	397.72
619.516	-684.908	402.356
611.952	-685.152	397.476
617.564	-684.664	402.6
612.684	-684.908	392.596
616.344	-689.056	399.916
613.66	-681.736	396.988
617.808	-688.08	401.136
610.976	-681.98	394.06
617.564	-690.764	399.428
613.416	-688.812	399.916
615.612	-681.98	402.356
616.588	-687.592	401.624
611.708	-680.76	398.208
614.148	-687.836	398.94
609.268	-690.52	395.768
613.66	-682.224	399.428
619.028	-686.372	402.6
615.368	-686.372	401.868
612.196	-684.176	396.744
613.172	-682.956	400.892
616.588	-690.764	396.5
614.148	-680.028	401.38
619.272	-685.152	399.428
613.66	-685.884	400.648
614.636	-682.468	397.232
619.028	-689.3	400.404
608.78	-680.516	398.452
620.492	-684.42	402.6
611.708	-685.884	396.5
617.076	-682.468	395.524
614.636	-686.128	397.232
615.612	-687.836	401.38
611.464	-684.664	396.988
613.904	-684.176	401.624
614.148	-683.2	396.988
614.636	-687.348	402.6
616.588	-688.324	397.476
613.172	-682.956	395.28
618.54	-685.396	398.208
613.904	-683.688	395.28
614.636	-694.18	400.404
620.736	-685.396	394.792
614.148	-680.028	393.572
616.344	-690.032	400.892
611.464	-686.616	394.792
617.076	-686.616	389.668
617.32	-684.42	391.864
619.272	-687.592	392.596
614.88	-690.032	395.036
617.564	-686.86	397.476
617.32	-688.568	393.572
615.124	-688.08	394.304
614.148	-684.664	397.964
616.832	-687.348	391.132
617.564	-691.74	394.06
612.684	-684.908	393.328
612.928	-694.912	397.72
611.708	-685.396	396.012
619.516	-685.152	391.864
614.392	-684.664	392.352
618.54	-689.3	394.792
614.88	-690.52	392.596
612.928	-687.836	396.744
612.684	-687.104	396.256
615.856	-684.176	393.328
610	-691.008	397.964
615.612	-689.544	396.256
614.148	-684.664	394.06
618.052	-689.056	399.184
616.344	-678.564	388.936
620.248	-682.468	400.648
611.708	-684.176	390.156
624.396	-685.64	399.184
613.416	-679.784	395.28
625.616	-684.42	399.428
615.124	-684.42	396.012
620.98	-682.956	397.232
614.88	-686.372	394.06
617.808	-681.736	398.94
618.296	-682.224	399.916
615.612	-681.248	401.868
619.272	-683.932	396.988
617.564	-684.664	394.792
617.808	-681.98	399.184
616.344	-681.492	401.136
614.88	-682.224	397.72
619.272	-683.444	400.892
607.56	-685.396	392.352
623.42	-682.956	408.212
609.024	-683.932	393.084
619.028	-686.86	405.772
615.368	-688.08	398.452
613.904	-688.324	403.82
615.368	-682.712	399.916
615.368	-684.42	398.94
614.392	-686.372	399.184
613.904	-682.956	401.624
614.392	-686.616	399.184
610	-681.492	400.648
614.148	-690.276	402.844
614.636	-683.2	396.256
616.1	-691.008	406.016
610.976	-684.664	397.232
613.66	-683.932	402.6
611.708	-688.324	400.648
610.244	-678.32	401.624
616.344	-690.764	404.064
608.78	-686.128	400.16
614.88	-688.324	401.624
607.316	-678.32	400.404
619.516	-681.492	410.408
608.048	-682.956	393.328
615.612	-689.544	405.284
609.024	-685.396	397.964
611.952	-691.496	399.672
615.124	-679.784	403.82
614.392	-682.956	404.308
608.048	-686.372	402.112
616.344	-688.324	404.552
613.416	-679.296	399.916
613.172	-679.54	401.136
612.928	-685.152	407.48
610	-688.08	399.916
616.588	-682.468	401.868
618.296	-683.688	398.208
613.904	-685.396	401.624
610	-684.908	404.552
615.368	-685.152	405.772
610.488	-687.104	395.28
613.904	-681.492	400.892
615.368	-688.324	399.672
610.732	-678.32	399.916
622.444	-690.276	404.796
612.684	-683.688	395.768
615.612	-684.908	408.7
609.756	-687.348	401.38
616.344	-686.372	403.576
614.148	-686.616	398.696
613.416	-685.884	400.892
610.976	-684.908	401.136
616.1	-685.396	395.524
615.368	-686.372	399.184
610.244	-691.984	400.648
616.832	-683.688	403.82
608.292	-681.492	398.452
613.904	-687.592	400.16
614.636	-680.516	400.16
610.244	-688.568	393.572
612.196	-683.688	394.06
614.148	-687.348	397.964
612.684	-684.664	401.624
613.66	-686.86	399.672
609.268	-682.224	402.112
611.952	-689.3	399.916
612.196	-679.54	396.5
613.66	-684.664	399.916
614.636	-686.86	404.064
614.636	-681.736	397.72
618.052	-685.152	398.452
616.1	-687.348	397.964
614.148	-687.592	399.916
616.832	-682.468	400.404
613.172	-688.812	400.648
617.076	-681.736	402.112
614.148	-682.224	403.82
618.052	-685.152	401.868
608.292	-680.76	397.476
621.956	-687.348	403.332
611.22	-683.2	397.232
619.516	-684.908	400.404
615.612	-684.664	401.868
611.22	-677.832	393.328
615.856	-683.932	404.308
614.636	-680.76	400.404
617.076	-687.104	397.232
621.224	-679.296	399.672
612.196	-687.104	396.988
616.832	-683.688	404.552
614.88	-686.372	396.256
618.052	-677.1	398.94
615.124	-682.468	398.452
615.124	-683.932	399.916
616.344	-687.104	395.768
616.832	-689.544	402.6
612.44	-685.64	396.5
605.12	-678.808	405.04
620.736	-685.152	401.868
613.172	-692.716	396.988
615.368	-685.152	402.356
608.536	-691.496	400.16
610.488	-681.98	406.26
613.66	-682.224	398.94
617.076	-687.592	399.916
606.34	-684.664	400.404
610	-686.86	403.82
616.588	-690.764	400.404
607.316	-689.544	401.868
616.1	-682.712	402.356
611.464	-679.784	400.16
611.952	-691.252	405.284
609.024	-684.42	394.06
614.636	-683.932	409.432
609.024	-685.152	399.428
612.44	-686.372	405.772
615.368	-684.176	404.064
609.268	-689.056	402.6
615.124	-682.956	400.648
611.708	-687.836	402.356
612.196	-686.86	403.332
612.196	-684.42	404.064
611.22	-685.152	399.672
615.124	-681.492	400.648
607.56	-692.716	407.968
610.244	-685.64	403.332
615.612	-685.64	407.236
612.44	-678.32	399.184
614.636	-686.372	405.772
612.44	-682.468	397.476
611.708	-688.812	400.648
614.88	-682.956	405.284
610.488	-685.396	399.672
616.832	-688.324	406.748
608.292	-680.76	392.352
620.492	-690.032	406.504
611.708	-683.2	395.524
618.784	-687.836	402.6
612.928	-685.152	397.476
613.172	-689.3	396.744
614.636	-683.688	397.476
615.124	-690.52	403.088
617.076	-684.908	396.256
606.584	-681.492	397.964
616.1	-689.056	399.916
610	-687.592	394.792
612.684	-689.3	403.332
611.708	-689.788	394.304
612.196	-694.424	396.012
612.928	-689.056	397.964
614.88	-686.128	396.988
609.024	-688.812	397.72
614.636	-687.592	396.256
612.928	-692.96	395.524
681.98	-318.908	631.716
695.156	-327.692	627.812
702.232	-303.292	634.644
708.332	-284.748	633.18
723.704	-283.04	649.528
718.336	-303.292	657.336
704.672	-305.488	620.492
693.692	-320.372	630.252
718.092	-307.684	642.208
697.84	-297.192	632.448
711.016	-305	657.824
699.304	-305.244	645.38
703.696	-322.568	647.088
708.576	-309.88	625.128
706.136	-308.416	641.964
710.528	-294.752	640.012
696.376	-302.316	643.672
709.064	-313.784	656.848
701.5	-305.488	635.132
696.62	-305.488	644.404
702.964	-290.116	650.016
709.064	-305.976	646.112
709.796	-294.508	630.496
700.036	-317.444	644.404
703.452	-300.608	649.528
696.864	-315.004	645.136
712.968	-298.656	642.208
697.596	-295.484	639.768
711.992	-315.492	651.48
701.988	-302.56	634.4
704.672	-320.86	651.968
704.428	-302.316	636.352
698.572	-307.196	644.892
702.232	-308.172	645.868
704.428	-309.88	645.868
701.012	-305.244	638.792
701.012	-317.932	654.408
709.064	-304.756	636.596
704.916	-315.492	639.524
708.088	-306.22	642.696
692.96	-314.272	641.232
703.452	-313.052	647.82
707.6	-315.004	639.036
704.184	-314.272	640.988
705.648	-312.808	640.012
702.476	-311.1	634.4
706.38	-310.856	632.692
711.992	-316.956	628.056
701.744	-318.908	635.62
709.308	-318.176	646.6
703.208	-314.76	634.644
716.14	-313.54	630.74
716.628	-316.712	631.96
701.988	-321.836	633.668
706.136	-314.272	635.132
711.992	-314.516	628.3
711.016	-311.1	623.908
718.336	-318.176	630.984
718.092	-316.468	628.056
713.7	-315.98	627.568
719.068	-315.004	634.156
713.944	-309.148	623.664
712.968	-313.54	627.324
722.728	-315.248	631.228
708.576	-309.392	615.368
718.58	-312.32	634.156
726.876	-303.292	617.808
717.36	-317.688	622.932
717.116	-312.076	626.836
724.436	-309.88	627.568
714.92	-304.024	620.736
728.096	-315.248	627.568
719.312	-299.388	615.124
716.872	-315.98	627.812
726.876	-305	626.104
716.628	-303.292	609.756
726.632	-309.392	625.372
717.848	-310.124	628.3
716.384	-313.296	622.932
720.532	-309.148	624.884
722.728	-306.464	618.296
718.58	-308.416	626.104
721.264	-302.072	625.128
723.46	-318.176	629.52
716.384	-307.44	618.052
726.388	-309.88	625.372
724.436	-305	621.224
718.092	-300.364	620.248
724.924	-308.904	632.936
717.848	-302.072	617.808
719.8	-307.684	628.544
730.78	-304.268	620.98
723.216	-304.756	612.928
731.268	-307.196	631.228
720.288	-301.828	615.368
723.948	-312.076	629.276
725.656	-299.632	620.98
719.312	-307.684	616.344
729.072	-300.12	618.052
729.072	-305.488	619.76
730.048	-303.536	618.784
726.632	-301.584	613.66
722.728	-308.66	621.956
732.488	-302.316	620.248
733.464	-304.756	608.048
732.244	-308.172	612.196
731.512	-297.436	612.44
733.708	-306.22	618.784
726.876	-298.412	610
735.416	-305.976	617.564
733.952	-301.34	610.732
728.096	-303.292	608.78
739.564	-297.924	609.024
734.928	-305.244	610.488
728.828	-300.852	607.804
734.44	-300.12	609.268
739.076	-305.732	611.708
735.172	-305	607.316
737.368	-304.512	606.584
740.052	-307.928	609.268
727.852	-297.924	609.756
734.196	-311.1	615.856
731.756	-299.876	606.096
738.1	-304.268	603.168
739.808	-301.828	603.9
730.048	-305.244	600.484
732.976	-300.364	610.732
738.344	-304.512	610.244
741.272	-303.048	602.192
740.784	-310.856	607.316
727.852	-304.024	610.488
721.752	-315.492	616.832
737.368	-316.712	610.732
749.08	-304.268	591.944
755.18	-307.196	601.704
729.316	-296.216	600.972
725.168	-292.8	611.464
730.536	-295.728	598.044
748.104	-313.296	595.604
755.912	-298.412	599.996
746.152	-305	599.264
744.2	-300.852	606.096
736.392	-306.708	603.412
740.296	-304.024	604.144
741.76	-303.536	598.044
749.812	-294.752	596.824
747.372	-298.168	594.628
743.712	-294.508	600.972
737.368	-315.004	614.148
748.104	-302.804	596.824
735.66	-299.144	586.82
756.888	-277.916	594.14
740.052	-309.148	592.432
732.976	-315.492	611.708
744.2	-312.808	604.876
754.204	-295.24	593.896
748.592	-295.728	579.5
743.468	-295.728	606.828
732.488	-311.344	605.852
734.684	-300.608	602.924
744.932	-306.708	597.8
759.572	-294.02	590.236
747.128	-297.192	586.332
734.44	-315.98	616.588
739.076	-299.876	613.416
736.636	-305.488	587.796
750.788	-294.508	591.7
733.952	-279.624	585.356
729.072	-292.8	610.976
737.368	-305.488	599.508
750.788	-305.488	601.46
739.564	-296.948	596.092
742.736	-305.732	603.168
747.128	-295.484	589.992
740.052	-308.66	597.8
749.08	-304.756	606.584
745.664	-307.928	601.216
744.932	-301.828	601.704
743.224	-301.096	595.848
747.616	-299.388	604.144
741.76	-306.952	594.14
752.74	-294.996	599.508
742.736	-300.364	591.944
738.588	-305.732	609.268
740.296	-297.192	593.408
740.052	-303.292	599.752
752.008	-303.536	598.288
739.564	-307.196	591.944
748.592	-305.732	605.608
737.612	-301.584	598.776
742.98	-300.608	597.556
749.324	-305.976	601.216
745.664	-302.072	589.016
740.296	-306.464	603.168
742.004	-303.048	595.604
742.004	-302.56	600.484
743.712	-303.78	596.824
752.496	-309.148	595.36
731.268	-307.44	592.676
744.688	-307.196	606.584
748.104	-304.756	594.628
743.712	-315.004	600.972
738.588	-302.072	598.532
741.516	-311.588	603.412
743.468	-304.756	587.796
740.052	-315.004	600.972
747.86	-307.44	602.192
732.488	-312.32	594.14
748.836	-309.636	610.244
740.784	-305.732	592.92
741.272	-309.88	596.58
742.98	-302.56	593.652
738.832	-310.612	595.116
742.98	-307.928	600.972
736.88	-310.124	594.384
746.396	-310.124	603.9
746.884	-304.512	597.8
743.468	-319.396	609.512
741.028	-307.196	598.044
744.2	-296.216	579.988
743.224	-283.528	582.916
747.128	-285.724	596.336
746.396	-307.928	620.98
746.396	-304.756	598.044
747.86	-312.32	600.484
738.588	-300.852	583.404
745.42	-300.12	599.508
739.808	-297.924	597.068
745.664	-306.708	606.096
737.856	-307.684	606.096
745.664	-311.1	600.24
742.248	-305.244	599.02
740.784	-306.464	596.092
741.272	-307.684	610.244
742.98	-309.392	599.996
736.392	-310.612	597.8
742.004	-307.44	599.264
738.1	-299.144	597.312
742.98	-308.66	606.096
744.932	-304.268	602.436
742.248	-313.052	599.02
745.176	-304.024	591.7
741.76	-307.928	597.8
739.808	-302.56	593.164
743.468	-302.804	595.116
746.884	-312.32	595.116
748.592	-317.688	598.044
742.248	-308.172	594.14
744.688	-307.44	596.092
746.152	-310.368	585.356
750.544	-312.564	591.944
748.836	-303.048	581.208
746.64	-314.272	594.872
752.008	-311.344	589.26
743.712	-315.492	590.236
748.592	-311.1	595.604
744.688	-309.148	586.82
753.472	-312.564	590.236
748.592	-307.928	582.184
745.664	-312.076	590.236
745.664	-310.368	593.164
748.104	-309.636	586.82
752.984	-310.612	586.332
745.664	-309.392	594.628
746.396	-315.736	589.504
749.08	-306.22	590.48
752.496	-305	585.112
746.64	-305	586.088
749.568	-305.244	583.648
756.644	-305.732	594.872
749.08	-311.1	600.972
748.104	-310.612	592.676
754.204	-305.244	591.212
748.348	-304.268	584.136
744.932	-301.34	586.088
749.08	-302.804	591.7
748.348	-304.512	589.504
752.984	-313.784	588.528
752.984	-298.9	584.136
741.76	-313.54	593.896
744.2	-301.828	591.944
754.448	-305.488	588.528
757.62	-300.852	589.748
750.788	-309.636	589.748
739.564	-316.468	595.36
745.176	-309.88	589.016
745.908	-306.708	592.432
749.812	-304.268	589.016
748.348	-309.88	595.116
747.616	-305.488	587.308
749.324	-316.224	591.944
748.348	-305.488	593.164
748.836	-312.076	594.14
751.52	-311.1	592.676
752.252	-307.44	589.992
744.444	-311.344	585.844
748.348	-312.076	593.408
743.468	-306.952	587.552
753.96	-305.976	593.164
747.372	-306.22	591.212
747.372	-314.76	592.432
748.104	-307.196	590.968
747.86	-309.88	589.504
750.544	-303.78	592.676
748.592	-302.072	588.528
747.86	-311.344	597.312
745.908	-307.928	590.968
749.08	-312.076	590.48
749.812	-308.172	595.116
743.468	-305.488	589.016
750.788	-306.708	590.236
744.444	-308.904	587.064
749.812	-313.296	593.408
743.956	-308.172	588.284
744.2	-306.708	591.7
752.984	-312.808	593.164
745.908	-307.196	589.016
750.3	-314.516	591.456
749.08	-312.808	589.016
746.884	-308.172	585.844
752.252	-306.22	594.872
742.248	-306.952	584.624
750.056	-312.808	589.504
750.056	-309.636	589.016
745.908	-312.076	586.332
753.716	-308.66	593.896
746.396	-307.928	590.968
750.3	-306.952	585.112
747.616	-312.32	597.8
743.712	-309.148	585.356
747.86	-310.124	595.848
743.956	-301.34	589.748
747.616	-307.928	591.944
743.224	-308.66	588.772
748.592	-307.196	587.796
749.812	-308.172	593.652
751.764	-304.756	591.7
743.956	-302.804	587.064
759.084	-310.856	596.336
744.444	-315.004	588.04
757.62	-307.44	598.532
739.808	-300.12	581.452
751.032	-309.392	591.456
750.788	-305.732	591.212
740.54	-311.588	589.016
755.912	-304.268	589.504
746.884	-301.828	583.404
753.96	-309.148	594.384
746.64	-304.268	591.212
746.152	-308.172	584.868
752.496	-307.684	589.992
749.324	-307.196	593.408
755.668	-305	597.312
745.176	-306.952	585.844
753.472	-310.124	589.992
744.688	-297.68	582.916
752.74	-304.268	592.188
755.18	-301.096	586.088
749.812	-311.1	588.772
751.764	-302.316	592.188
746.884	-309.392	589.748
754.936	-305.488	592.432
748.592	-305.976	581.452
754.448	-310.368	591.7
745.908	-309.636	583.648
750.3	-310.124	586.332
749.812	-303.048	588.04
750.544	-313.052	587.064
753.228	-305.732	588.772
743.224	-317.688	589.748
753.96	-308.172	587.552
746.152	-310.368	585.112
749.568	-310.612	588.04
746.396	-310.612	591.944
744.2	-314.028	586.088
751.276	-310.612	585.6
747.128	-310.612	584.38
750.3	-309.392	593.164
743.712	-313.54	590.48
747.616	-315.004	589.016
749.568	-307.44	586.088
749.324	-315.492	585.356
747.86	-307.684	588.772
746.64	-317.688	594.872
750.3	-315.248	590.48
743.956	-313.54	582.916
749.812	-309.636	585.112
746.64	-316.468	594.872
745.42	-313.296	595.36
744.444	-312.076	589.26
750.056	-310.856	592.432
743.956	-314.028	590.724
742.98	-316.224	594.628
746.152	-311.344	591.456
746.64	-315.248	592.92
749.812	-313.052	593.896
737.368	-317.2	593.408
747.616	-311.832	596.092
741.76	-311.832	584.136
747.372	-314.028	595.848
738.588	-315.736	591.944
746.884	-317.444	593.652
742.98	-316.224	590.48
747.128	-318.664	592.188
746.396	-315.248	590.724
744.444	-321.104	595.604
742.248	-314.028	589.748
741.028	-317.444	590.724
745.908	-314.272	590.724
744.444	-320.86	596.824
743.468	-315.492	589.016
745.42	-318.908	593.164
747.86	-316.224	591.456
745.42	-314.76	589.748
745.42	-314.028	592.676
741.76	-315.736	589.748
743.956	-319.396	592.432
747.372	-315.248	586.82
746.396	-314.028	596.58
739.808	-320.86	587.064
744.444	-315.98	593.164
747.616	-318.42	589.748
747.616	-319.152	587.308
744.688	-316.712	590.48
738.344	-317.2	591.212
743.468	-320.128	593.164
749.08	-318.42	586.332
750.056	-315.736	593.164
742.736	-322.324	588.772
750.056	-319.884	592.188
737.368	-320.372	585.356
744.688	-320.616	594.628
742.248	-315.98	592.676
747.128	-315.98	590.48
743.224	-318.42	590.968
741.76	-315.98	592.432
738.1	-319.64	590.236
749.324	-319.884	591.944
742.492	-320.86	591.456
749.08	-317.444	595.116
742.248	-314.516	590.724
741.516	-326.716	596.092
743.712	-318.908	591.944
738.588	-322.812	589.992
746.64	-315.98	592.432
741.516	-322.324	591.212
745.42	-320.372	596.58
734.44	-328.912	593.896
744.444	-326.96	591.7
738.832	-318.908	588.284
740.784	-325.496	595.116
738.588	-325.252	584.868
742.492	-332.084	594.628
739.564	-329.888	588.528
741.516	-325.74	589.26
739.564	-324.032	590.48
740.784	-329.156	590.968
738.832	-329.156	584.868
741.272	-331.108	591.212
738.588	-326.228	589.016
741.028	-324.764	591.7
738.588	-329.4	590.724
740.54	-326.472	590.724
735.904	-332.572	591.212
742.492	-327.448	590.968
740.052	-317.932	587.308
747.372	-328.912	589.992
735.172	-328.424	592.188
738.1	-333.304	589.504
744.688	-329.156	589.26
742.248	-325.74	589.26
739.32	-318.42	581.696
736.636	-331.352	592.432
737.124	-330.132	587.064
738.588	-333.792	592.92
742.736	-329.888	595.848
730.78	-331.596	589.26
732	-336.476	594.628
737.612	-340.38	591.944
738.832	-341.112	590.48
732	-345.26	607.56
735.904	-333.792	600.972
728.584	-335.5	588.04
730.536	-347.7	589.016
727.852	-338.428	593.164
720.776	-355.508	613.66
722.484	-335.988	605.12
718.824	-356.484	598.044
720.776	-354.044	596.824
726.144	-351.604	602.924
711.748	-354.776	621.712
713.7	-350.628	619.028
698.328	-351.604	616.344
705.16	-368.44	631.228
692.472	-360.388	632.204
676.368	-369.904	619.516
682.956	-386.496	648.308
670.512	-386.74	671
687.348	-389.424	666.852
690.276	-374.54	647.332
681.248	-352.58	640.744
678.32	-387.96	676.612
666.852	-338.184	660.752
718.092	-421.144	640.256
672.708	-345.992	702.72
664.9	-369.66	730.536
633.912	-369.904	672.952
626.592	-379.176	674.416
585.356	-323.544	681.004
671.244	-406.26	631.96
606.828	-420.9	660.508
606.096	-437.248	675.148
590.968	-325.984	695.4
628.788	-422.364	680.272
637.572	-445.056	628.544
599.508	-413.092	616.588
608.536	-402.112	615.124
617.564	-369.416	642.94
633.18	-379.176	648.064
608.048	-372.832	632.448
653.676	-376.248	615.612
660.02	-426.268	677.588
592.676	-383.08	641.476
629.032	-407.724	622.932
671	-429.196	659.288
613.66	-353.8	666.12
672.464	-411.628	663.68
650.992	-370.636	674.904
635.62	-381.86	651.968
651.236	-368.44	681.248
664.9	-345.992	681.98
658.8	-371.612	685.64
639.768	-348.676	649.528
649.04	-340.624	650.748
679.784	-339.648	661.972
